Folder: Thesis/Data/5. CV

File: Undoped_pg3t_AgAgCl_2(notsuresinceitclose).txt
Potential applied (V);Time (s);WE(1).Current (A);WE(1).Potential (V);Scan;Index;Q+;Q-;Current range;Overload
0,00244140625;6,5013369835857;-7,9864501953125E-05;0,0023681640625;1;1;0;-0,00923120840942383;1 mA;
0,21728515625;8,64853697816454;-8,0474853515625E-05;0,2171630859375;1;89;0;-0,00923120840942383;1 mA;
0,43212890625;10,7957369727434;-8,2489013671875E-05;0,431671142578125;1;177;0;-0,00923120840942383;1 mA;
0,64697265625;12,9429369673222;-6,4697265625E-06;0,646087646484375;1;265;0;-0,00923120840942383;1 mA;
0,86181640625;15,0901369619011;-8,392333984375E-05;0,8599853515625;1;353;0;-0,00923120840942383;1 mA;
0,92529296875;17,2373369564799;-8,2244873046875E-05;0,92376708984375;1;441;0;-0,00923120840942383;1 mA;
0,71044921875;19,3845369510587;-8,09326171875E-05;0,709625244140625;1;529;0;-0,00923120840942383;1 mA;
0,49560546875;21,5317369456376;-0,000990203857421875;0,496917724609375;1;617;0;-0,00923120840942383;100 µA;Current overload
0,28076171875;23,6789369402164;-8,2000732421875E-05;0,280609130859375;1;705;0;-0,00923120840942383;1 mA;
0,06591796875;25,8261369347953;-8,160400390625E-05;0,0657958984375;1;793;0;-0,00923120840942383;1 mA;
-0,14892578125;27,9733369293741;-8,282470703125E-05;-0,14837646484375;1;881;0;-0,00923120840942383;1 mA;
-0,36376953125;30,120536923953;-8,319091796875E-05;-0,362579345703125;1;969;0;-0,00923120840942383;1 mA;
-0,57861328125;32,2677369185318;-8,33740234375E-05;-0,57672119140625;1;1057;0;-0,00923120840942383;1 mA;
-0,79345703125;34,4149369131106;-8,4075927734375E-05;-0,791015625;1;1145;0;-0,00923120840942383;1 mA;
-0,99365234375;36,5621369076895;-8,1390380859375E-05;-0,9918212890625;1;1233;0;-0,00923120840942383;1 mA;
-0,77880859375;38,7093369022683;-8,4075927734375E-05;-0,7769775390625;1;1321;0;-0,00923120840942383;1 mA;
-0,56396484375;40,8565368968472;-0,00099176025390625;-0,56048583984375;1;1409;0;-0,00923120840942383;100 µA;Current overload
-0,34912109375;43,003736891426;-8,2427978515625E-05;-0,34796142578125;1;1497;0;-0,00923120840942383;1 mA;
-0,13427734375;45,1509368860048;-0,000992340087890625;-0,13214111328125;1;1585;0;-0,00923120840942383;100 µA;Current overload
0,08056640625;47,2981368805837;-8,23974609375E-05;0,08056640625;2;1673;0;-0,00838479595458985;1 mA;
0,29541015625;49,4453368751625;-0,000967376708984375;0,297088623046875;2;1761;0;-0,00838479595458985;100 µA;Current overload
0,51025390625;51,5925368697414;-9,130859375E-05;0,510040283203125;2;1849;0;-0,00838479595458985;1 mA;
0,72509765625;53,7397368643202;-8,4991455078125E-05;0,724151611328125;2;1937;0;-0,00838479595458985;1 mA;
0,93994140625;55,886936858899;-0,000123687744140625;0,938720703125;2;2025;0;-0,00838479595458985;1 mA;
0,84716796875;58,0341368534779;-8,2489013671875E-05;0,84625244140625;2;2113;0;-0,00838479595458985;1 mA;
0,63232421875;60,1813368480567;-8,0230712890625E-05;0,631744384765625;2;2201;0;-0,00838479595458985;1 mA;
0,41748046875;62,3285368426356;-8,19091796875E-05;0,417205810546875;2;2289;0;-0,00838479595458985;1 mA;
0,20263671875;64,4757368372144;-8,8470458984375E-05;0,2027587890625;2;2377;0;-0,00838479595458985;1 mA;
-0,01220703125;66,6229368317933;-8,1268310546875E-05;-0,012017822265625;2;2465;0;-0,00838479595458985;1 mA;
-0,22705078125;68,7701368263721;-7,769775390625E-05;-0,22625732421875;2;2553;0;-0,00838479595458985;1 mA;
-0,44189453125;70,9173368209509;-0,000989288330078125;-0,4385986328125;2;2641;0;-0,00838479595458985;100 µA;Current overload
-0,65673828125;73,0645368155298;-8,02001953125E-05;-0,65460205078125;2;2729;0;-0,00838479595458985;1 mA;
-0,87158203125;75,2117368101086;-0,00099176025390625;-0,869140625;2;2817;0;-0,00838479595458985;100 µA;Current overload
-0,91552734375;77,3589368046875;-8,0413818359375E-05;-0,91339111328125;2;2905;0;-0,00838479595458985;1 mA;
-0,70068359375;79,5061367992663;-7,58056640625E-05;-0,698394775390625;2;2993;0;-0,00838479595458985;1 mA;
-0,48583984375;81,6533367938451;-7,5927734375E-05;-0,48431396484375;2;3081;0;-0,00838479595458985;1 mA;
-0,27099609375;83,800536788424;-7,0892333984375E-05;-0,270111083984375;2;3169;0;-0,00838479595458985;1 mA;
-0,05615234375;85,9477367830028;-0,00028179931640625;-0,05548095703125;2;3257;0;-0,00838479595458985;100 µA;
0,15869140625;88,0949367775817;-6,5185546875E-05;0,158538818359375;3;3345;0;-0,00668067696044924;1 mA;
0,37353515625;90,2421367721605;-5,28564453124999E-06;0,3731689453125;3;3433;0;-0,00668067696044924;1 mA;
0,58837890625;92,3893367667393;-6,854248046875E-05;0,587890625;3;3521;0;-0,00668067696044924;1 mA;
0,80322265625;94,5365367613182;-0,000454376220703125;0,802001953125;3;3609;0;-0,00668067696044924;100 µA;Current overload
0,98388671875;96,683736755897;-6,84814453125E-05;0,98297119140625;3;3697;0;-0,00668067696044924;1 mA;
0,76904296875;98,8309367504759;-0,0004649658203125;0,7684326171875;3;3785;0;-0,00668067696044924;100 µA;Current overload
0,55419921875;100,978136745055;-7,26318359375E-05;0,553741455078125;3;3873;0;-0,00668067696044924;1 mA;
0,33935546875;103,125336739634;-7,3394775390625E-05;0,339141845703125;3;3961;0;-0,00668067696044924;1 mA;
0,12451171875;105,272536734212;-7,5347900390625E-05;0,124481201171875;3;4049;0;-0,00668067696044924;1 mA;
-0,09033203125;107,419736728791;-7,305908203125E-05;-0,089996337890625;3;4137;0;-0,00668067696044924;1 mA;
-0,30517578125;109,56693672337;-0,000762908935546875;-0,30291748046875;3;4225;0;-0,00668067696044924;100 µA;Current overload
-0,52001953125;111,714136717949;-7,537841796875E-05;-0,518402099609375;3;4313;0;-0,00668067696044924;1 mA;
-0,73486328125;113,861336712528;-7,3028564453125E-05;-0,732818603515625;3;4401;0;-0,00668067696044924;1 mA;
-0,94970703125;116,008536707107;-7,31201171875E-05;-0,9478759765625;3;4489;0;-0,00668067696044924;1 mA;
-0,83740234375;118,155736701685;-7,5347900390625E-05;-0,8349609375;3;4577;0;-0,00668067696044924;1 mA;
-0,62255859375;120,302936696264;-7,36083984375E-05;-0,620635986328125;3;4665;0;-0,00668067696044924;1 mA;
-0,40771484375;122,450136690843;-7,177734375E-05;-0,406280517578125;3;4753;0;-0,00668067696044924;1 mA;
-0,19287109375;124,597336685422;-7,598876953125E-05;-0,192291259765625;3;4841;0;-0,00668067696044924;1 mA;
0,02197265625;126,744536680001;-7,623291015625E-05;0,02203369140625;4;4929;0;-0,00780637037963868;1 mA;
0,23681640625;128,89173667458;-7,5439453125E-05;0,236572265625;4;5017;0;-0,00780637037963868;1 mA;
0,45166015625;131,038936669158;-7,7484130859375E-05;0,451324462890625;4;5105;0;-0,00780637037963868;1 mA;
0,66650390625;133,186136663737;-7,781982421875E-05;0,66583251953125;4;5193;0;-0,00780637037963868;1 mA;
0,88134765625;135,333336658316;-7,7667236328125E-05;0,8807373046875;4;5281;0;-0,00780637037963868;1 mA;
0,90576171875;137,480536652895;-7,818603515625E-05;0,904541015625;4;5369;0;-0,00780637037963868;1 mA;
0,69091796875;139,627736647474;-7,7545166015625E-05;0,690216064453125;4;5457;0;-0,00780637037963868;1 mA;
0,47607421875;141,774936642053;-8,88671875E-05;0,47564697265625;4;5545;0;-0,00780637037963868;1 mA;
0,26123046875;143,922136636632;-8,8836669921875E-05;0,260986328125;4;5633;0;-0,00780637037963868;1 mA;
0,04638671875;146,06933663121;-8,4197998046875E-05;0,0465423583984375;4;5721;0;-0,00780637037963868;1 mA;
-0,16845703125;148,216536625789;-8,3465576171875E-05;-0,16790771484375;4;5809;0;-0,00780637037963868;1 mA;
-0,38330078125;150,363736620368;-8,33740234375E-05;-0,381866455078125;4;5897;0;-0,00780637037963868;1 mA;
-0,59814453125;152,510936614947;-7,916259765625E-05;-0,596038818359375;4;5985;0;-0,00780637037963868;1 mA;
-0,81298828125;154,658136609526;-7,8369140625E-05;-0,8111572265625;4;6073;0;-0,00780637037963868;1 mA;
-0,97412109375;156,805336604105;-4,0252685546875E-05;-0,9722900390625;4;6161;0;-0,00780637037963868;100 µA;
-0,75927734375;158,952536598683;-8,0230712890625E-05;-0,7574462890625;4;6249;0;-0,00780637037963868;1 mA;
-0,54443359375;161,099736593262;-8,2427978515625E-05;-0,5426025390625;4;6337;0;-0,00780637037963868;1 mA;
-0,32958984375;163,246936587841;-7,9071044921875E-05;-0,328582763671875;4;6425;0;-0,00780637037963868;1 mA;
-0,11474609375;165,39413658242;-7,7117919921875E-05;-0,1143798828125;4;6513;0;-0,00780637037963868;1 mA;
0,10009765625;167,541336576999;-7,7606201171875E-05;0,099761962890625;5;6601;0;-0,00555336576049805;1 mA;
0,31494140625;169,688536571578;-7,5958251953125E-05;0,3145751953125;5;6689;0;-0,00555336576049805;1 mA;
0,52978515625;171,835736566156;-7,5164794921875E-05;0,52935791015625;5;6777;0;-0,00555336576049805;1 mA;
0,74462890625;173,982936560735;-0,000312744140625;0,744140625;5;6865;0;-0,00555336576049805;100 µA;
0,95947265625;176,130136555314;-7,3638916015625E-05;0,95794677734375;5;6953;0;-0,00555336576049805;1 mA;
0,82763671875;178,277336549893;-0,000470245361328125;0,8270263671875;5;7041;0;-0,00555336576049805;100 µA;Current overload
0,61279296875;180,424536544472;-7,3516845703125E-05;0,612213134765625;5;7129;0;-0,00555336576049805;1 mA;
0,39794921875;182,571736539051;-7,8155517578125E-05;0,397796630859375;5;7217;0;-0,00555336576049805;1 mA;
0,18310546875;184,71893653363;-7,659912109375E-05;0,182952880859375;5;7305;0;-0,00555336576049805;1 mA;
-0,03173828125;186,866136528208;-7,3760986328125E-05;-0,0314910888671875;5;7393;0;-0,00555336576049805;1 mA;
-0,24658203125;189,013336522787;-0,000250640869140625;-0,2452392578125;5;7481;0;-0,00555336576049805;100 µA;
-0,46142578125;191,160536517366;-0,000185546875;-0,459625244140625;5;7569;0;-0,00555336576049805;100 µA;
-0,67626953125;193,307736511945;-0,000125762939453125;-0,6739501953125;5;7657;0;-0,00555336576049805;100 µA;
-0,89111328125;195,454936506524;-0,000192596435546875;-0,88897705078125;5;7745;0;-0,00555336576049805;100 µA;
-0,89599609375;197,602136501103;-7,31201171875E-05;-0,8935546875;5;7833;0;-0,00555336576049805;1 mA;
-0,68115234375;199,749336495681;-7,32421875E-05;-0,67889404296875;5;7921;0;-0,00555336576049805;1 mA;
-0,46630859375;201,89653649026;-7,537841796875E-05;-0,464752197265625;5;8009;0;-0,00555336576049805;1 mA;
-0,25146484375;204,043736484839;-7,8216552734375E-05;-0,2506103515625;5;8097;0;-0,00555336576049805;1 mA;
-0,03662109375;206,190936479418;-7,9254150390625E-05;-0,036444091796875;5;8185;0;-0,00555336576049805;1 mA;
0;206,556936478494;-8,062744140625E-05;0,000143432617187494;5;8200;0;-0,00555336576049805;1 mA;